Folder: hybrid-drt/tutorials/data

Note: tutorials/data/PEIS_LPSCl_IonBlocking_-25C_RelaxIS.txt
RelaxIS 3.0 Spectrum export
Date: 12/16/2025 2:29:15 PM
Data: Frequency	Data: Z'	Data: Z''	Data: |Z|	Data: Theta (Z)
DC=-0.080042, TM=33.741076, J=-5E-6, FV2=1	Model: Unassigned Spectra	(WE/RE Spectrum) PEIS_TSeq7_-25C_#61_C01.mpr_1		
0.10002180933952332	1799427.625	-8093785.5	8291399.3690826036	-77.465737538855649
0.12605488300323486	1437206.125	-6639494	6793264.4598729936	-77.786012784608388
0.15884265303611755	1139984.25	-5420088	5538674.7528621014	-78.122344487329997
0.20027980208396912	902134.4375	-4435824	4526630.2148838537	-78.504268689641549
0.25263577699661255	720854.0625	-3622934.5	3693952.4862554749	-78.74684209069602
0.31843557953834534	576366.625	-2960067	3015658.3246287853	-78.981575567481102
0.40150582790374756	460009.5625	-2409447.25	2452966.5403596526	-79.191214324982866
0.50586014986038208	366094.25	-1964708.5	1998525.5789844955	-79.444832702772331
0.63775479793548584	291935	-1602771.875	1629142.0218986482	-79.677093639371293
0.80433487892150879	234300.953125	-1303392	1324283.8224109225	-79.80920970046455
1.0128990411758423	188480.8125	-1060613.875	1077231.0840869641	-79.923212506100143
1.2769699096679688	150278.859375	-864034.875	877006.27180842706	-80.13342553097786
1.6108230352401733	121456.6484375	-702541.3125	712962.84140121436	-80.191550983587788
2.030275821685791	97937.4375	-570832.5	579173.10427912348	-80.264578428765105
2.558119535446167	78325.609375	-464363.65625	470923.03652490099	-80.425866949912887
3.2256395816802979	63876.59375	-376872.5625	382247.49521013076	-80.380288716431451
4.0647759437561035	51780.2109375	-306533.21875	310875.86661233025	-80.411994147593134
5.126312255859375	41826.8359375	-248422.765625	251919.34162607725	-80.442771533757323
6.4619555473327637	34213.16015625	-201936.1875	204813.97449859805	-80.383943890579218
8.1465396881103516	27914.228515625	-163879.0625	166239.43960294573	-80.33333867532653
10.272860527038574	22832.5078125	-133020.109375	134965.45080554814	-80.260262011346242
12.948885917663574	18869.59375	-107951.8515625	109588.61174438735	-80.08507432489796
16.321390151977539	15641.1611328125	-87612.2109375	88997.446182121421	-79.877785159986374
20.57276725769043	13077.875	-71093.203125	72286.059133750925	-79.576743978362458
25.937929153442383	10867.849609375	-57753.87109375	58767.50617003825	-79.34297383213918
32.688304901123047	9242.697265625	-46910.71484375	47812.578051132303	-78.853926235333944
41.199699401855469	7783.1435546875	-38074.42578125	38861.796435121061	-78.44681287888524
51.944778442382813	6658.1103515625	-30912.443359375	31621.347028552584	-77.844977481289405
65.481964111328125	5722.82861328125	-25120.009765625	25763.649934783814	-77.165947190053501
82.543495178222656	4954.26123046875	-20453.234375	21044.70243881836	-76.383849815987375
104.10025787353516	4380.970703125	-16563.615234375	17133.191586334964	-75.184885517221332
131.21739196777344	3874.699462890625	-13516.01953125	14060.443801561043	-74.003747774748334
165.37010192871094	3442.772705078125	-11001.2255859375	115

Note: tutorials/data/sample_info.txt
CP_SSB: Chronopotentiometry measurement from a solid-state battery near 0% state of charge with NCM-LPSCl composite cathode, LPSCl separator, and InLi alloy counter electrode. Measured at 25 deg. C with 50 MPa stack pressure.
Original path: data\echem\PressCells\HalfCells\240506_PC05_NCM-LPSCl_baseline\hybrid\HybridGEIS_0.01C_03_CP_C08.mpr

PEIS_LPSCl_IonBlocking_-25C: EIS measurement from an LPSCl pellet between blocking stainless steel electrode. Measured at -25 deg. C with 50 MPa stack pressure.
Original path: data\echem\PressCells\ThermalDecomp\LPSCl\250514_POSCO_Pristine\PC06_100mg_IonBlock\00_TOvershoot_k=0.05\PEIS_TSeq7_-25C_#51_C01.mpr

HybridValidation_SSB: Joint-domain ("hybrid") impedance measurements and conventional EIS measurements performed on a solid-state battery near 0% state of charge with NCM-LPSCl composite cathode, LPSCl separator, and InLi alloy counter electrode. Measured at 25 deg. C with 50 MPa stack pressure.
Original path: data\echem\PressCells\HalfCells\250210_NCM-LPSCl_7030_EPRO-POSCO_premix_Half\run11_HybridVal_Rest\HybridVal5_Rest_Iac=0.0033C_C01.mpr


PEIS_SSB: EIS measurement from a solid-state battery near 0% state of charge with NCM-LPSCl composite cathode, LPSCl separator, and InLi alloy counter electrode. Measured at 25 deg. C with 50 MPa stack pressure.
Original path: data\echem\PressCells\HalfCells\250210_NCM-LPSCl_7030_EPRO-POSCO_premix_Half\run9_HybridValidation\PEIS_StdEIS_RepVal_EOD_vac=5mV_#0_C01.mpr

Note: README.md
# hybrid-drt

`hybrid-drt` is a Python package for probabilistic analysis of electrochemical impedance data using the distribution of relaxation times (DRT) and distribution of phasances (DOP). The key features of `hybrid-drt` are:
1. DRT estimation using a robust, self-tuning hierarchical Bayesian approach (no manual tuning needed)
2. Introduction of the [DOP]() for handling constant-phase features like (pseudo)-inductance, (pseudo)-capacitance, or Warburg-like diffusion
3. DRT/DOP estimation from accelerated joint time/frequency-domain impedance measurements
4. Probabilistic DRT analysis methods (distinguishing pseudo-peaks from true peaks)
5. Automatic creation of equivalent circuit analogs from the DRT
6. Multi-dimensional DRT fitting and analysis

For methodology details, see [this work on probabilistic DRT analysis](https://www.sciencedirect.com/science/article/pii/S001346862300066X) and [this work on joint-domain impedance measurements and DOP transformation](https://www.sciencedirect.com/science/article/pii/S001346862300066X).

*Disclaimer:* `hybrid-drt` is experimental and under active development. The code is provided to demonstrate several conceptual approaches to electrochemical analysis, but the details of the implementation may change in the future.

## Probabilistic DRT analysis and interpretation
The philosophy underpinning the probabilistic methods in `hybrid-drt` is that distribution of relaxation times (DRT) analysis should fulfill two objectives: (1) determine the relaxation magnitude as a function of timescale and (2) identify the distinct processes that comprise the total distribution. The first objective is a regression task that is fulfilled by conventional DRT algorithms, while the second objective is a pseudo-classification task that is ignored by most DRT algorithms. `hybrid-drt` unites the regression and classification views of DRT inversion to clarify DRT interpretation and meaningfully express uncertainty, following the framework developed in [this paper](https://www.sciencedirect.com/science/article/abs/pii/S001346862300066X). The package currently provides several methods for analyzing electrochemical impedance spectroscopy (EIS) data:
* Conventional DRT estimation via a self-tuning hierarchical Bayesian model
* Probabilistic EIS deconvolution using the probability function of relaxation times (PFRT)
* A "dual inversion" algorithm for autonomous discrete model generation, comparison, and selection
* Methods for scoring the accuracy of DRT estimates using regression, classification, and hybrid metrics

## Joint-domain impedance measurement and DRT transformation
Joint-domain ("hybrid") impedance measurements use time-domain chronopotentiometry measurements to quickly probe low-frequency processes ($\leq \sim 100$ Hz), while still accessing high frequencies ($\geq \sim 100$ Hz) with conventional frequency-domain impedance measurements. The two data components can then be joined with the DRT transform, thereby allowin

File: CP_SSB.txt
EC-Lab ASCII FILE
Nb header lines : 62

Chronopotentiometry

Run on channel : 8 (SN 12288)
User :
Electrode connection : standard
Potential control : Ewe
Ewe ctrl range : min = 0.00 V, max = 5.00 V
Ewe,I filtering : 50 kHz
Safety Limits :
	Do not start on E overload
Channel : Grounded
Acquisition started on : 05/17/2024 14:09:11.952
Loaded Setting File :  NONE
Saved on :
	File : HybridGEIS_0.005C_03_CP_C08.mpr
	Directory : C:\Users\akzmess010\Documents\EC-Lab\Data\JakeHuang\240506_PC05_NCM-LPSCl_baseline\hybrid\
	Host : 192.109.209.2
Device : VMP-300 (SN 0451)
Address : 192.109.209.30
EC-LAB for windows v11.50 (software)
Internet server v11.50 (firmware)
Command interpretor v11.50 (firmware)
Electrode material :
Initial state :
Electrolyte :
Comments :
Mass of active material : 7.826 mg
 at x = 0.000
Molecular weight of active material (at x = 0) : 28.000 g/mol
Atomic weight of intercalated ion : 7.000 g/mol
Acquisition started at : xo = 0.000
Number of e- transfered per intercalated ion : 1
for DX = 1, DQ = 7.491 mA.h
Battery capacity : 1.680 mA.h
Cable : special
Reference electrode : SCE Saturated Calomel Electrode (0.241 V)
Electrode surface area : 0.001 cm²
Characteristic mass : 7.826 mg
Volume (V) : 0.001 cm³
Cycle Definition : Charge/Discharge alternance
Ns                  0                   1                   2                   3                   4                   5                   6                   7
Is                  0.000               8.400               -8.400              8.400               -8.400              8.400               -8.400              0.000
unit Is             mA                  µA                  µA                  µA                  µA                  µA                  µA                  µA
vs.                 <None>              <None>              <None>              <None>              <None>              <None>              <None>              <None>
ts (h:m:s)          0:00:3.0000         0:00:0.1000         0:00:0.1000         0:00:1.0000         0:00:1.0000         0:00:10.0000        0:00:10.0000        0:00:5.0000
EM (V)              pass                4.500               0.200               4.500               0.200               4.500               0.200               pass
dQM                 0.000               233.333             233.333             2.333               2.333               23.333              23.333              0.000
unit dQM            mA.h                pA.h                pA.h                nA.h                nA.h                nA.h                nA.h                mA.h
record              Ewe                 Ewe                 Ewe                 Ewe                 Ewe                 Ewe                 Ewe                 Ewe
dEs (mV)            0.00                0.00                0.00                0.00                0.00                0.00                0.00                0.00
dts (s)             0.0010              0.0010              0.0010              0.0010              0.0010              0.0010              0.0010              0.0010
E range min (V)     0.000               0.000               0.000               0.000               0.000               0.000               0.000               0.000
E range max (V)     5.000               5.000               5.000               5.000               5.000               5.000               5.000               5.000
I Range             100 µA              100 µA              100 µA              100 µA              100 µA              100 µA              100 µA              100 µA
Bandwidth           8                   8                   8                   8                   8                   8                   8                   8
goto Ns'            0                   0                   0                   0                   0                   0                   0                   0
nc cycles           0                   0                   0                   0                   0                   0                   0                   0

time/s	Ewe/V	I/mA	I Range		step time/s	Ns
19.8948	2.92315	-1.93068e-05	41	0	0.000000000000000E+000	0
20.0188	2.9236	-1.80686e-05	41	0	20.0188	0
20.1428	2.92357	-1.91495e-05	41	0	20.1428	0
20.2668	2.92357	-1.89548e-05	41	0	20.2668	0
20.3908	2.92356	-1.96229e-05	41	0	20.3908	0
20.5148	2.92358	-1.90884e-05	41	0	20.5148	0
20.6388	2.92361	-1.96573e-05	41	0	20.6388	0
20.7628	2.92359	-1.87067e-05	41	0	20.7628	0
20.8868	2.9236	-1.87105e-05	41	0	20.8868	0
21.0108	2.92359	-1.83172e-05	41	0	21.0108	0
21.1348	2.92358	-1.88976e-05	41	0	21.1348	0
21.2588	2.92362	-1.83287e-05	41	0	21.2588	0
21.3828	2.92359	-1.81149e-05	41	0	21.3828	0
21.5068	2.92359	-1.82752e-05	41	0	21.5068	0
21.6308	2.9235	-1.8489e-05	41	0	21.6308	0
21.7548	2.92363	-1.87143e-05	41	0	21.7548	0
21.8788	2.92358	-1.73742e-05	41	0	21.8788	0
22.0028	2.92354	-1.81607e-05	41	0	22.0028	0
22.1268	2.92356	-1.78896e-05	41	0	22.1268	0
22.2508	2.92359	-1.76224e-05	41	0	22.2508	0
22.3748	2.9236	-1.69466e-05	41	0	22.3748	0
22.4988	2.92359	-1.7023e-05	41	0	22.4988	0
22.6228	2.9236	-1.80042e-05	41	0	22.6228	0
22.7468	2.92359	-1.72712e-05	41	0	22.7468	0
22.8708	2.92357	-1.9035e-05	41	0	22.8708	0
22.994	2.93247	0.0083814	41	0	0.099	1
23.1164	2.92833	0.00838289	41	0	0.021	3
23.2404	2.93275	0.00838269	41	0	0.145	3
23.3644	2.93378	0.00838327	41	0	0.269	3
23.4884	2.93427	0.00838384	41	0	0.393	3
23.6124	2.93466	0.00838338	41	0	0.517	3
23.7364	2.93501	0.00838415	41	0	0.641	3
23.8604	2.9352	0.0083835	41	0	0.765	3
23.9844	2.93537	0.00838372	41	0	0.889	3
24.1076	2.92409	-0.00842444	41	0	0.012	4
24.2316	2.91693	-0.00842391	41	0	0.136	4
24.3556	2.9151	-0.00842349	41	0	0.26	4
24.4796	2.91415	-0.0084233	41	0	0.384	4
24.6036	2.91347	-0.00842349	41	0	0.508	4
24.7276	2.91293	-0.00842345	41	0	0.632	4
24.8516	2.91255	-0.0084241	41	0	0.756	4
24.9756	2.91223	-0.00842444	41	0	0.88	4
25.0988	2.92022	0.00838361	41	0	0.003	5
25.2228	2.93077	0.00838506	41	0	0.127	5
25.3468	2.93251	0.00838437	41	0	0.251	5
25.4708	2.93335	0.00838487	41	0	0.375	5
25.5948	2.93397	0.00838502	41	0	0.499	5
25.7188	2.93437	0.00838479	41	0	0.623	5
25.8428	2.93468	0.00838353	41	0	0.747	5
25.9668	2.93495	0.00838334	41	0	0.871	5
26.0908	2.93521	0.00838445	41	0	0.995	5
26.2148	2.93537	0.00838361	41	0	1.119	5
26.3388	2.93553	0.00838499	41	0	1.243	5
26.4628	2.93569	0.00838399	41	0	1.367	5
26.5868	2.93587	0.00838434	41	0	1.491	5
26.7108	2.93596	0.00838498	41	0	1.615	5
26.8348	2.93602	0.00838323	41	0	1.739	5
26.9588	2.93617	0.00838338	41	0	1.863	5
27.0828	2.93623	0.00838323	41	0	1.987	5
27.2068	2.93635	0.00838369	41	0	2.111	5
27.3308	2.93642	0.00838369	41	0	2.235	5
27.4548	2.93647	0.00838369	41	0	2.359	5
27.5788	2.93655	0.00838373	41	0	2.483	5
27.7028	2.93664	0.00838342	41	0	2.607	5
27.8268	2.93671	0.00838449	41	0	2.731	5
27.9508	2.93674	0.00838353	41	0	2.855	5
28.0748	2.93679	0.00838342	41	0	2.979	5
28.1988	2.93687	0.00838384	41	0	3.103	5
28.3228	2.93693	0.00838392	41	0	3.227	5
28.4468	2.93696	0.008383	41	0	3.351	5
28.5708	2.93703	0.00838552	41	0	3.475	5
28.6948	2.93708	0.0083833	41	0	3.599	5
28.8188	2.93711	0.00838357	41	0	3.723	5
28.9428	2.93713	0.00838376	41	0	3.847	5
29.0668	2.93717	0.00838292	41	0	3.971	5
29.1908	2.93728	0.00838365	41	0	4.095	5
29.3148	2.93727	0.00838262	41	0	4.219	5
[...]
39.358	2.91086	-0.00842467	41	0	4.262	6
39.482	2.91079	-0.00842483	41	0	4.386	6
39.606	2.91065	-0.00842517	41	0	4.51	6
39.73	2.91063	-0.00842662	41	0	4.634	6
39.854	2.91058	-0.00842574	41	0	4.758	6
39.978	2.91054	-0.00842589	41	0	4.882	6
40.102	2.91042	-0.00842483	41	0	5.006	6
40.226	2.91036	-0.0084246	41	0	5.13	6
40.35	2.91036	-0.00842463	41	0	5.254	6
40.474	2.91021	-0.00842631	41	0	5.378	6
40.598	2.91022	-0.00842727	41	0	5.502	6
40.722	2.91011	-0.00842574	41	0	5.626	6
40.846	2.91011	-0.00842662	41	0	5.75	6
40.97	2.91003	-0.00842578	41	0	5.874	6
41.094	2.90994	-0.00842712	41	0	5.998	6
41.218	2.90991	-0.00842418	41	0	6.122	6
41.342	2.90987	-0.00842567	41	0	6.246	6
41.466	2.90984	-0.00842567	41	0	6.37	6
41.59	2.90978	-0.00842567	41	0	6.494	6
41.714	2.90974	-0.00842456	41	0	6.618	6
41.838	2.90964	-0.00842509	41	0	6.742	6
41.962	2.90967	-0.00842536	41	0	6.866	6
42.086	2.90963	-0.00842517	41	0	6.99	6
42.21	2.90953	-0.00842448	41	0	7.114	6
42.334	2.90952	-0.00842433	41	0	7.238	6
42.458	2.90943	-0.00842536	41	0	7.362	6
42.582	2.90943	-0.0084257	41	0	7.486	6
42.706	2.90935	-0.00842418	41	0	7.61	6
42.83	2.90933	-0.00842448	41	0	7.734	6
42.954	2.90933	-0.0084254	41	0	7.858	6
43.078	2.90927	-0.00842345	41	0	7.982	6
43.202	2.90923	-0.00842517	41	0	8.106	6
43.326	2.90922	-0.0084244	41	0	8.23	6
43.45	2.90915	-0.00842456	41	0	8.354	6
43.574	2.90911	-0.00842509	41	0	8.478	6
43.698	2.90908	-0.00842517	41	0	8.602	6
43.822	2.90906	-0.00842383	41	0	8.726	6
43.946	2.90903	-0.00842402	41	0	8.85	6
44.07	2.90902	-0.00842444	41	0	8.974	6
44.194	2.90896	-0.00842559	41	0	9.098	6
44.318	2.90888	-0.00842498	41	0	9.222	6
44.442	2.90893	-0.00842414	41	0	9.346	6
44.566	2.90885	-0.00842574	41	0	9.47	6
44.69	2.90877	-0.00842609	41	0	9.594	6
44.814	2.90881	-0.00842567	41	0	9.718	6
44.938	2.9087	-0.00842513	41	0	9.842	6
45.062	2.90872	-0.00842517	41	0	9.966	6
45.1852	2.91799	-1.54725e-05	41	0	10.0892	7
45.3092	2.91937	-1.74086e-05	41	0	10.2132	7
45.4332	2.91998	-1.69963e-05	41	0	10.3372	7
45.5572	2.92046	-1.6435e-05	41	0	10.4612	7
45.6812	2.92069	-1.6374e-05	41	0	10.5852	7
45.8052	2.92098	-1.70535e-05	41	0	10.7092	7
45.9292	2.92112	-1.66069e-05	41	0	10.8332	7
46.0532	2.92126	-1.60647e-05	41	0	10.9572	7
46.1772	2.92139	-1.63091e-05	41	0	11.0812	7
46.3012	2.92157	-1.64656e-05	41	0	11.2052	7
46.4252	2.92165	-1.63052e-05	41	0	11.3292	7
46.5492	2.92179	-1.74391e-05	41	0	11.4532	7
46.6732	2.92185	-1.58815e-05	41	0	11.5772	7
46.7972	2.92192	-1.56638e-05	41	0	11.7012	7
46.9212	2.92199	-1.64198e-05	41	0	11.8252	7
47.0452	2.9221	-1.66565e-05	41	0	11.9492	7
47.1692	2.92208	-1.61831e-05	41	0	12.0732	7
47.2932	2.92216	-1.57364e-05	41	0	12.1972	7
47.4172	2.92225	-1.55951e-05	41	0	12.3212	7
47.5412	2.9223	-1.57937e-05	41	0	12.4452	7
47.6652	2.92235	-1.63281e-05	41	0	12.5692	7
47.7892	2.92239	-1.60418e-05	41	0	12.6932	7
47.9132	2.92247	-1.68016e-05	41	0	12.8172	7
48.0372	2.92247	-1.48316e-05	41	0	12.9412	7
48.1612	2.92251	-1.65038e-05	41	0	13.0652	7
48.2852	2.92256	-1.57593e-05	41	0	13.1892	7
48.4092	2.92253	-1.52477e-05	41	0	13.3132	7
48.5332	2.92258	-1.61487e-05	41	0	13.4372	7
48.6572	2.92263	-1.67061e-05	41	0	13.5612	7
48.7812	2.92266	-1.73399e-05	41	0	13.6852	7
48.9052	2.9227	-1.66107e-05	41	0	13.8092	7
49.0292	2.92264	-1.55149e-05	41	0	13.9332	7
49.1532	2.92273	-1.63167e-05	41	0	14.0572	7
49.2772	2.9227	-1.60647e-05	41	0	14.1812	7
49.4012	2.92278	-1.55608e-05	41	0	14.3052	7
49.5252	2.92283	-1.58967e-05	41	0	14.4292	7
49.6492	2.92284	-1.72597e-05	41	0	14.5532	7
49.7732	2.92287	-1.65381e-05	41	0	14.6772	7
49.8972	2.92284	-1.56333e-05	41	0	14.8012	7
50.0212	2.92285	-1.63587e-05	41	0	14.9252	7
50.096	2.92289	-1.60914e-05	41	0	15	7