Folder: hybrid-drt/tutorials/data (part 2)

File: PEIS_LPSCl_IonBlocking_-25C.txt
EC-Lab ASCII FILE
Nb header lines : 65

Potentio Electrochemical Impedance Spectroscopy

Run on channel : 1 (SN 15255)
User :
Electrode connection : standard
Potential control : Ewe
Ewe ctrl range : min = -10.00 V, max = 10.00 V
Ewe,I filtering : <None>
Safety Limits :
	Do not start on E overload
Channel : Floating
Acquisition started on : 05/15/2025 01:18:45.867
Loaded Setting File :  C:\Users\AKZMESS002\Documents\EC-Lab\Data\JakeHuang\ThermalDecomp\LPSCl\250514_POSCO_Pristine\PC06_100mg\00_TOvershoot_k=0.05\PEIS_TSeq7_-25C_#61.mps
Saved on :
	File : PEIS_TSeq7_-25C_#61_C01.mpr
	Directory : C:\Users\AKZMESS002\Documents\EC-Lab\Data\JakeHuang\ThermalDecomp\LPSCl\250514_POSCO_Pristine\PC06_100mg\00_TOvershoot_k=0.05\
	Host : 192.109.209.1
Device : SP-300 (SN 1787)
Address : 192.109.209.10
EC-LAB for windows v11.61 (software)
Internet server v11.61 (firmware)
Command interpretor v11.61 (firmware)
Electrode material :
Initial state :
Electrolyte :
Comments :
Cable : standard
Electrode surface area : 0.001 cm²
Characteristic mass : 0.001 g
Equivalent Weight : 0.000 g/eq.
Density : 0.000 g/cm3
Volume (V) : 0.001 cm³
Cycle Definition : Charge/Discharge alternance
Mode                Single sine
E (V)               0.0000
vs.                 Eoc
tE (h:m:s)          0:00:1.0000
record              0
dI                  0.000
unit dI             A
dt (s)              1.000
fi                  7.000
unit fi             MHz
ff                  100.000
unit ff             mHz
Nd                  10
Points              per decade
spacing             Logarithmic
Va (mV)             14.1
pw                  0.10
Na                  2
corr                0
E range min (V)     -10.000
E range max (V)     10.000
I Range             Auto
Bandwidth           9
nc cycles           0
goto Ns'            0
nr cycles           0
inc. cycle          0

freq/Hz	Re(Z)/Ohm	-Im(Z)/Ohm	|Z|/Ohm	Phase(Z)/deg	time/s	<Ewe>/V	<I>/mA	cycle number	Ns
7.00002e+06	359.241	290.92	462.265	-39.0012	4.70948	-0.0800277	-0.00014506	1	0
5.5529e+06	408.145	333.605	527.138	-39.2615	6.39149	-0.0800339	1.78667e-06	1	0
4.40496e+06	463.821	359.287	586.7	-37.7622	7.1005	-0.0800268	1.93582e-06	1	0
3.49433e+06	520.166	386.647	648.127	-36.6239	8.78249	-0.0800504	-2.82579e-07	1	0
2.77195e+06	584.439	413.276	715.798	-35.2654	10.4645	-0.0800623	-2.63151e-06	1	0
2.19891e+06	657.539	436.96	789.488	-33.6056	12.1465	-0.080045	-5.59566e-06	1	0
1.74433e+06	735.361	455.09	864.791	-31.752	12.5775	-0.0800493	-9.54785e-06	1	0
1.38373e+06	819.98	464.148	942.231	-29.512	13.0085	-0.0800395	1.82411e-06	1	0
1.09767e+06	906.66	464.062	1018.52	-27.1051	13.4395	-0.0800567	-3.32124e-06	1	0
870750	995.213	456.373	1094.86	-24.6347	13.7315	-0.080055	-1.1524e-05	1	0
690738	1078.27	435.784	1163	-22.0062	14.0235	-0.0800395	-5.98712e-06	1	0
547942	1157.26	406.123	1226.45	-19.3378	15.7065	-0.0800488	-1.49427e-06	1	0
434670	1224.23	370.519	1279.08	-16.8386	17.3885	-0.080047	-6.621e-06	1	0
344808	1282.14	329.763	1323.87	-14.4237	18.2365	-0.0800432	-4.77538e-06	1	0
273530	1327.72	287.15	1358.41	-12.2036	19.0845	-0.0800386	-1.0219e-05	1	0
216987	1360.55	250.135	1383.35	-10.4174	19.6545	-0.0800558	1.09713e-06	1	0
172126	1384.6	217.342	1401.56	-8.92095	19.9465	-0.080057	-9.15629e-06	1	0
136542	1405.02	186.608	1417.36	-7.56547	20.2385	-0.0800313	-1.25865e-05	1	0
108317	1415.62	162.739	1424.95	-6.55788	20.5305	-0.0800495	-1.11697e-05	1	0
85928.2	1428.24	148.245	1435.91	-5.92584	20.9615	-0.0800405	-1.4022e-05	1	0
68159.9	1436.58	136.706	1443.07	-5.43595	21.2535	-0.0800456	-1.06663e-05	1	0
54065.8	1439.73	132.161	1445.78	-5.24482	21.5465	-0.080035	-1.00138e-05	1	0
42894.5	1445.31	133.361	1451.45	-5.27184	21.8385	-0.0800512	-6.41581e-06	1	0
34024.3	1451.34	140.864	1458.16	-5.54366	22.1305	-0.0800571	-8.85799e-06	1	0
26991.2	1457.75	155.209	1465.99	-6.07747	22.4225	-0.0800351	-1.49728e-05	1	0
21414.8	1461.45	177.208	1472.16	-6.91361	22.7145	-0.0800114	-2.13858e-05	1	0
16988.9	1467.64	207.255	1482.2	-8.03795	23.0065	-0.0800274	-1.51219e-05	1	0
13472.4	1475.59	244.847	1495.77	-9.42131	23.4385	-0.0800482	-8.44787e-06	1	0
10707.4	1485.26	291.36	1513.57	-11.0986	23.7305	-0.0800286	-1.13561e-05	1	0
8481.44	1496.08	357.126	1538.12	-13.4257	24.0478	-0.0800403	8.73442e-07	1	0
6725.43	1510.23	433.832	1571.31	-16.0273	24.4244	-0.0800286	-3.63807e-06	1	0
5334.73	1527.41	525.408	1615.25	-18.9825	24.8783	-0.0800197	-3.13472e-06	1	0
4231.36	1553.53	645.22	1682.19	-22.5543	25.3457	-0.0800531	-4.43972e-06	1	0
3356.78	1578	788.852	1764.19	-26.5607	25.8129	-0.0800351	-6.56501e-06	1	0
2664.15	1611.7	967.412	1879.75	-30.974	26.2798	-0.0800407	-1.43204e-05	1	0
2112.97	1657.94	1182.36	2036.35	-35.4945	26.747	-0.0800373	-1.4395e-05	1	0
1675.54	1711.16	1447.71	2241.41	-40.2326	27.2137	-0.0800577	-1.05173e-05	1	0
1329.57	1775.61	1774.85	2510.55	-44.9877	27.6808	-0.0800558	-1.309e-05	1	0
1054.66	1849.26	2167.24	2848.98	-49.5265	28.1478	-0.0800422	-1.01817e-05	1	0
836.872	1953.3	2658.4	3298.86	-53.6929	28.8673	-0.0800485	1.67925e-05	1	0
663.514	2066.11	3257.66	3857.62	-57.6158	29.3362	-0.0800451	1.95547e-06	1	0
526.516	2207.99	3984.24	4555.15	-61.0056	29.8022	-0.080043	2.51901e-06	1	0
417.727	2380.89	4866.05	5417.3	-63.9282	30.2699	-0.0800337	2.89966e-06	1	0
331.379	2576.44	5973.6	6505.53	-66.6693	30.7349	-0.0800502	2.63467e-06	1	0
262.897	2812.48	7299.84	7822.9	-68.9293	31.2054	-0.0800314	1.91063e-06	1	0
208.466	3115.86	8964.76	9490.81	-70.8342	31.6762	-0.0800412	1.94048e-06	1	0
165.37	3442.77	11001.2	11527.3	-72.6228	32.1413	-0.0800288	1.30974e-06	1	0
131.217	3874.7	13516	14060.4	-74.0037	32.6049	-0.0800464	2.0375e-06	1	0
104.1	4380.97	16563.6	17133.2	-75.1849	33.0755	-0.0800412	2.92201e-06	1	0
82.5435	4954.26	20453.2	21044.7	-76.3838	33.5547	-0.0800442	1.71839e-06	1	0
65.482	5722.83	25120	25763.7	-77.1659	34.2713	-0.0800247	7.42152e-08	1	0
51.9448	6658.11	30912.4	31621.3	-77.845	34.7233	-0.0800447	1.53477e-07	1	0
41.1997	7783.14	38074.4	38861.8	-78.4468	35.1789	-0.0800381	1.22703e-07	1	0
32.6883	9242.7	46910.7	47812.6	-78.8539	35.6739	-0.0800235	6.936e-08	1	0
25.9379	10867.9	57753.9	58767.5	-79.343	36.1265	-0.08004	4.30052e-07	1	0
20.5728	13077.9	71093.2	72286.1	-79.5767	36.5822	-0.0800427	1.99163e-07	1	0
16.3214	15641.2	87612.2	88997.4	-79.8778	37.0166	-0.0800337	3.10876e-07	1	0
12.9489	18869.6	107952	109589	-80.0851	37.5485	-0.0800276	-6.15943e-07	1	0
10.2729	22832.5	133020	134965	-80.2603	38.2524	-0.0800246	1.05036e-08	1	0
8.14654	27914.2	163879	166239	-80.3333	38.8143	-0.0800213	-2.87491e-08	1	0
6.46196	34213.2	201936	204814	-80.3839	39.1865	-0.0800147	2.13421e-08	1	0
5.12631	41826.8	248423	251919	-80.4428	39.6458	-0.080024	-8.52703e-09	1	0
4.06478	51780.2	306533	310876	-80.412	40.2078	-0.0800318	-3.36196e-08	1	0
3.22564	63876.6	376873	382248	-80.3803	40.9028	-0.0800229	1.55577e-08	1	0
2.55812	78325.6	464364	470923	-80.4259	41.7658	-0.0800283	-4.1859e-08	1	0
2.03028	97937.4	570832	579173	-80.2646	42.8415	-0.0800261	-4.63531e-08	1	0
1.61082	121457	702541	712963	-80.1916	44.1869	-0.0800229	-3.25787e-08	1	0
1.27697	150279	864035	877006	-80.1334	45.8722	-0.0800362	-2.14989e-08	1	0
1.0129	188481	1.06061e+06	1.07723e+06	-79.9232	47.9855	-0.0800408	-1.13448e-08	1	0
0.804335	234301	1.30339e+06	1.32428e+06	-79.8092	50.6356	-0.0800428	-2.72399e-08	1	0
0.637755	291935	1.60277e+06	1.62914e+06	-79.6771	53.9688	-0.0800478	-2.97639e-08	1	0
0.50586	366094	1.96471e+06	1.99853e+06	-79.4448	58.1599	-0.0800653	-2.79802e-08	1	0
0.401506	460010	2.40945e+06	2.45297e+06	-79.1912	63.4299	-0.0800606	-2.40427e-08	1	0
0.318436	576367	2.96007e+06	3.01566e+06	-78.9816	70.0653	-0.0800821	-1.76137e-08	1	0
0.252636	720854	3.62293e+06	3.69395e+06	-78.7468	78.4187	-0.0800754	-2.22037e-08	1	0
0.20028	902134	4.43582e+06	4.52663e+06	-78.5043	88.9452	-0.080068	-1.23487e-08	1	0
0.158843	1.13998e+06	5.42009e+06	5.53868e+06	-78.1223	102.211	-0.0800662	-2.0687e-08	1	0
0.126055	1.43721e+06	6.63949e+06	6.79326e+06	-77.786	118.916	-0.0800508	-2.27443e-08	1	0
0.100022	1.79943e+06	8.09379e+06	8.2914e+06	-77.4657	139.961	-0.0800582	-2.45481e-08	1	0